time (s)	coil I (A)	last det (V)	int current (uC)
429960.531413	0.418311	154.882812	-358.886719
429960.533414	0.554618	154.882812	-358.886719
429960.535415	0.552790	6.080693	0.396819
429961.579444	0.326524	325.000000	72.949219
429961.581446	0.547465	325.000000	72.949219
429961.583446	0.551857	325.000000	72.949219
429961.585447	0.550374	6.054115	0.450399
429962.595452	0.359271	162.500000	-344.042969
429962.597453	0.551515	162.500000	-344.042969
429962.599454	0.552214	6.074356	0.456542
429963.643468	0.263522	322.070312	78.710937
429963.645472	0.532150	322.070312	78.710937
429963.647477	0.551948	322.070312	78.710937
429963.649478	0.550284	6.053123	0.533071
429964.660415	1.912331	174.023437	-324.609375
429964.662412	0.554348	174.023437	-324.609375
429964.664417	0.552228	6.074507	0.499231
429965.742466	0.521364	325.585937	72.851562
429965.744468	0.552477	325.585937	72.851562
429965.746469	0.550786	6.058643	0.495058
429966.756459	0.266433	156.054687	-351.269531
429966.758461	0.533431	156.054687	-351.269531
429966.760462	0.552463	156.054687	-351.269531
429966.762461	0.550779	6.058564	0.475983
429967.838438	0.379120	321.386719	72.949219
429967.840442	0.552767	321.386719	72.949219
429967.842441	0.552151	6.073657	0.420004
429968.822523	0.510957	171.093750	-324.609375
429968.824525	0.552484	171.093750	-324.609375
429968.828525	0.549618	6.045794	0.559028
429969.904523	0.547299	315.820312	78.515625
429969.906530	0.551851	315.820312	78.515625
429969.908528	0.550366	6.054027	0.469086
429970.918983	0.433362	167.871094	-325.878906
429970.920984	0.553623	167.871094	-325.878906
429970.922985	0.551549	6.067037	0.486556
429972.001110	0.517999	312.402344	76.367187
429972.003111	0.552514	312.402344	76.367187
429972.005113	0.550775	6.058528	0.418587
429973.015182	0.273058	159.765625	-337.304687
429973.017185	0.535294	159.765625	-337.304687
429973.019184	0.552172	159.765625	-337.304687
429973.023182	0.549510	6.044615	0.470694
429974.065212	0.493971	310.058594	81.250000
429974.067215	0.552465	310.058594	81.250000
429974.069214	0.550562	6.056180	0.448967
429975.081250	0.513799	183.203125	-302.539062
429975.083253	0.552051	183.203125	-302.539062
429975.085252	0.550343	6.053770	0.551936
429976.133275	0.550912	313.281250	84.960937
429976.135277	0.549717	6.046883	0.528900
429977.177282	1.727502	181.640625	-310.937500
429977.179283	0.552111	181.640625	-310.937500
429977.181283	0.551843	6.070271	0.505071
429978.226204	0.427257	323.632812	70.507812
429978.228206	0.553370	323.632812	70.507812
429978.230207	0.553366	6.087029	0.485027
429979.274272	0.343024	155.566406	-357.128906
429979.276270	0.549616	155.566406	-357.128906
429979.278272	0.551797	6.069766	0.428553
429980.292342	0.552431	331.347656	70.703125
429980.294345	0.551404	331.347656	70.703125
429980.296345	0.550147	6.051616	0.564636
429981.340351	0.540079	164.160156	-340.527344
429981.342353	0.552056	164.160156	-340.527344
429981.344353	0.550509	6.055604	0.593626
429982.387268	0.351050	334.570312	70.605469
429982.389269	0.551313	334.570312	70.605469
429982.391270	0.551771	6.069482	0.529982
429983.404252	0.508189	161.230469	-343.554687
429983.406260	0.552512	161.230469	-343.554687
429983.408260	0.550731	6.058041	0.517563
429984.486259	0.546442	334.863281	67.187500
429984.488260	0.551855	334.863281	67.187500
429984.490259	0.550388	6.054266	0.476023
429985.502316	0.551819	142.871094	-373.046875
429985.504317	0.552044	6.072486	0.473264
429986.582331	0.465996	332.031250	65.820312
429986.584334	0.552736	332.031250	65.820312
429986.586333	0.550727	6.057996	0.418067
429987.566352	0.543189	171.386719	-321.777344
429987.568353	0.551660	171.386719	-321.777344
429987.572351	0.549108	6.040192	0.560887
429988.646925	0.489271	326.367187	73.242187
429988.648927	0.552488	326.367187	73.242187
429988.650927	0.550568	6.056251	0.473908
429989.662953	0.510492	148.632812	-355.957031
429989.664954	0.553199	148.632812	-355.957031
429989.666954	0.551405	6.065459	0.505884
429990.742977	0.326041	325.585937	70.312500
429990.744978	0.547363	325.585937	70.312500
429990.746979	0.551916	325.585937	70.312500
429990.748977	0.550365	6.054017	0.423590
429991.727082	0.486142	173.828125	-311.914062
429991.729083	0.552326	173.828125	-311.914062
429991.733083	0.549290	6.042186	0.578411
429992.811183	0.552021	323.632812	74.511719
429992.813185	0.550481	6.055294	0.623749
429993.823255	0.343526	168.359375	-318.554687
429993.825253	0.550044	168.359375	-318.554687
429993.827254	0.552207	6.074277	0.531371
429994.905253	0.447994	324.218750	73.339844
429994.907254	0.553668	324.218750	73.339844
429994.909254	0.551539	6.066930	0.424651
429995.888175	0.431038	181.542969	-298.046875
429995.890176	0.553612	181.542969	-298.046875
429995.892175	0.551566	6.067222	0.605467
429996.969143	0.371645	325.195312	76.074219
429996.971145	0.552480	325.195312	76.074219
429996.973143	0.552266	6.074924	0.492899
429997.985155	0.405160	155.371094	-340.527344
429997.987158	0.552921	155.371094	-340.527344
429997.989157	0.551347	6.064820	0.536966
429999.067220	0.496481	329.101562	69.824219
429999.069221	0.552703	329.101562	69.824219
429999.071221	0.550812	6.058928	0.440040
430000.085218	0.552755	133.789062	-381.250000
430000.087219	0.551013	6.061143	0.457034
430001.133201	0.553337	331.738281	72.949219
430001.135203	0.551300	6.064298	0.524830
430002.151787	0.550931	145.214844	-361.718750
430002.153787	0.549816	6.047974	0.541057
430003.227799	0.366205	338.281250	66.210937
430003.229800	0.551480	338.281250	66.210937
430003.231800	0.551539	6.066930	0.454285
430004.245882	0.552770	133.105469	-388.378906
430004.247884	0.552814	6.080959	0.455140
430005.292373	0.397832	343.750000	65.820312
430005.294373	0.553314	343.750000	65.820312
430005.296374	0.551968	6.071644	0.556105
430006.308973	0.499460	153.125000	-352.636719
430006.310975	0.552690	153.125000	-352.636719
430006.312976	0.550871	6.059583	0.542457
430007.391016	0.544327	343.457031	57.128906
430007.393018	0.551665	343.457031	57.128906
430007.397016	0.549144	6.040582	0.653795
430008.407042	0.550966	143.945312	-371.386719
430008.409042	0.552757	6.080330	0.799668
430009.455071	0.528258	341.406250	63.574219
430009.457072	0.552372	341.406250	63.574219
430009.459073	0.550684	6.057527	0.530823
430010.503085	0.479421	153.906250	-351.953125
430010.505085	0.552692	153.906250	-351.953125
430010.507085	0.550741	6.058156	0.448165
430011.555093	0.551359	334.667969	64.453125
430011.557096	0.550140	6.051545	0.425099
430012.567093	0.432630	167.675781	-322.656250
430012.569094	0.553432	167.675781	-322.656250
430012.571096	0.551411	6.065521	0.539109
430013.615096	0.338157	330.761719	71.679687
430013.617096	0.548424	330.761719	71.679687
430013.619099	0.551156	330.761719	71.679687
430013.621099	0.549756	6.047318	0.519063
430014.664067	0.406545	156.054687	-333.789062
430014.666069	0.553518	156.054687	-333.789062
430014.668070	0.551944	6.071387	0.469822
430015.713001	0.456351	326.953125	66.406250
430015.715003	0.553756	326.953125	66.406250
430015.717004	0.551645	6.068100	0.441836
430016.729451	0.519904	154.492187	-331.054687
430016.731453	0.552471	154.492187	-331.054687
430016.733453	0.550772	6.058493	0.533764
430017.777479	0.466720	328.027344	75.000000
430017.781479	0.550600	328.027344	75.000000
430017.783479	0.549403	6.043436	0.530157
430018.825480	0.384091	140.917969	-355.175781
430018.827481	0.552319	140.917969	-355.175781
430018.829482	0.551445	6.065893	0.461609
430019.875556	0.541826	331.933594	72.363281
430019.877559	0.552292	331.933594	72.363281
430019.879559	0.550692	6.057615	0.630015
430020.892492	0.553200	143.457031	-351.269531
430020.894495	0.551164	6.062800	0.520731
430021.972491	1.846493	336.425781	63.574219
430021.974494	0.552668	336.425781	63.574219
430021.976493	0.550990	6.060886	0.444073
430022.988525	0.541901	123.144531	-395.410156
430022.990527	0.551857	123.144531	-395.410156
430022.992529	0.550327	6.053601	0.430655
430024.037034	0.538695	341.406250	67.578125
430024.039034	0.551674	341.406250	67.578125
430024.041035	0.550132	6.051456	0.622208
430025.052004	0.471082	144.335937	-354.980469
430025.054006	0.552914	144.335937	-354.980469
430025.058003	0.549648	6.046130	0.526396
430026.134089	0.534493	344.531250	57.812500
430026.136091	0.552290	344.531250	57.812500
430026.138090	0.550752	6.058271	0.495416
430027.150136	0.544852	122.070312	-401.660156
430027.152138	0.551818	122.070312	-401.660156
430027.154137	0.550368	6.054044	0.440178
430028.200173	0.552375	349.316406	61.035156
430028.202176	0.550628	6.056907	0.528840
430029.212737	0.352114	140.039062	-367.187500
430029.214739	0.550938	140.039062	-367.187500
430029.216739	0.552218	6.074401	0.535000
430030.294775	0.458394	349.804687	54.687500
430030.296776	0.552836	349.804687	54.687500
430030.298776	0.550808	6.058883	0.456741
430031.310825	0.485996	126.757812	-393.164062
430031.312825	0.552504	126.757812	-393.164062
430031.314826	0.550553	6.056083	0.440339
430032.358899	0.422854	353.222656	59.375000
430032.360902	0.552915	353.222656	59.375000
430032.362902	0.551016	6.061178	0.533214
430033.376943	0.554085	135.937500	-374.707031
430033.378943	0.551960	6.071556	0.532524
430034.458920	0.552831	352.246094	54.492187
430034.460919	0.551081	6.061887	0.440129
430035.470986	0.273974	139.062500	-368.359375
430035.472990	0.535174	139.062500	-368.359375
430035.474987	0.551657	139.062500	-368.359375
430035.476990	0.550061	6.050668	0.472845
430036.520979	0.490909	354.785156	60.546875
430036.522983	0.552782	354.785156	60.546875
430036.524983	0.550886	6.059742	0.559202
430037.536999	0.509958	143.359375	-358.105469
430037.539002	0.552387	143.359375	-358.105469
430037.541000	0.550567	6.056233	0.543869
430038.617019	0.327699	351.757812	54.785156
430038.619021	0.336967	351.757812	54.785156
430038.621020	0.552289	351.757812	54.785156
430038.623020	0.550790	6.058688	0.480690
430039.635051	0.551197	132.812500	-377.734375
430039.637054	0.551302	132.812500	-377.734375
430039.639053	0.549894	6.048833	0.456935
430040.681121	0.278244	353.613281	62.304687
430040.683122	0.536725	353.613281	62.304687
430040.685123	0.551931	353.613281	62.304687
430040.687121	0.550363	6.053991	0.566670
430041.697656	0.403564	142.675781	-354.882812
430041.699656	0.552235	142.675781	-354.882812
430041.701657	0.550796	6.058759	0.573708
430042.779648	0.488591	350.292969	59.765625
430042.781651	0.552517	350.292969	59.765625
430042.783650	0.550568	6.056251	0.475653
430043.794218	0.300794	130.371094	-376.074219
430043.796220	0.543088	130.371094	-376.074219
430043.798220	0.552619	130.371094	-376.074219
430043.800220	0.552528	6.077813	0.476623
430044.844227	0.507281	347.656250	67.285156
430044.848227	0.550991	347.656250	67.285156
430044.850229	0.549878	6.048656	0.559055
430045.860219	0.521280	149.023437	-333.984375
430045.862219	0.552530	149.023437	-333.984375
430045.864220	0.550794	6.058732	0.593910
430046.940205	0.346841	343.066406	62.988281
430046.942211	0.550957	343.066406	62.988281
430046.944215	0.552841	6.081251	0.466758
430047.956272	0.392268	134.375000	-356.738281
430047.958274	0.552946	134.375000	-356.738281
430047.960274	0.551832	6.070156	0.503686
430049.006336	0.543590	341.894531	70.898437
430049.008338	0.552150	341.894531	70.898437
430049.012338	0.549618	6.045802	0.545624
430050.054890	0.541878	133.398437	-356.640625
430050.056892	0.552031	133.398437	-356.640625
430050.058893	0.550455	6.055001	0.578459
430051.103434	0.540774	339.160156	66.308594
430051.105434	0.551654	339.160156	66.308594
430051.107435	0.550114	6.051252	0.445307
430052.118005	0.423965	145.703125	-332.324219
430052.120009	0.553789	145.703125	-332.324219
430052.122010	0.551872	6.070590	0.547017
430053.167992	2.294211	342.480469	68.652344
430053.169995	0.552110	342.480469	68.652344
430053.171995	0.550621	6.056836	0.762692
430054.216934	0.552443	143.652344	-339.648437
430054.218935	0.551366	6.065024	0.481759
430055.263482	0.383540	343.359375	61.718750
430055.265487	0.552552	343.359375	61.718750
430055.267485	0.551710	6.068809	0.450890
430056.280061	0.486932	158.691406	-318.554687
430056.284063	0.550532	158.691406	-318.554687
430056.286065	0.549340	6.042736	0.573691
430057.328057	0.410358	351.855469	61.914062
430057.330059	0.553059	351.855469	61.914062
430057.332059	0.551438	6.065813	0.549674
430058.376590	0.405897	134.082031	-373.144531
430058.378591	0.553027	134.082031	-373.144531
430058.380591	0.551396	6.065352	0.483710
430059.425082	0.392527	356.347656	55.078125
430059.427084	0.551970	356.347656	55.078125
430059.429084	0.550798	6.058777	0.470689
430060.444092	0.551981	149.609375	-346.679687
430060.446095	0.550337	6.053707	0.545097
430061.490091	0.477448	365.039062	57.910156
430061.492093	0.552482	365.039062	57.910156
430061.494095	0.550482	6.055303	0.587148
430062.538095	0.401184	123.144531	-399.218750
430062.540098	0.552851	123.144531	-399.218750
430062.542098	0.551344	6.064785	0.460028
430063.588537	0.553540	365.722656	51.660156
430063.590539	0.553075	6.083821	0.896528
430064.603137	0.487434	139.257812	-361.425781
430064.605138	0.552121	139.257812	-361.425781
430064.607138	0.550184	6.052023	0.526868
430065.687206	0.551897	361.035156	48.730469
430065.689207	0.550367	361.035156	48.730469
430065.691212	0.549320	6.042523	0.444718
430066.701200	0.548047	114.355469	-410.253906
430066.703202	0.552478	114.355469	-410.253906
430066.705203	0.550968	6.060647	0.424080
430067.749681	0.544801	365.234375	55.957031
430067.751683	0.551811	365.234375	55.957031
430067.753682	0.550322	6.053539	0.531386
430068.764267	0.439682	134.472656	-362.304687
430068.766269	0.553544	134.472656	-362.304687
430068.768269	0.551528	6.066806	0.542775
430069.846325	0.516497	358.691406	51.269531
430069.848325	0.553138	358.691406	51.269531
430069.850325	0.551369	6.065060	0.433624
430070.862400	0.533342	128.808594	-371.972656
430070.864401	0.552027	128.808594	-371.972656
430070.866403	0.550409	6.054496	0.488721
430071.912398	0.552776	359.570312	55.468750
430071.914398	0.550840	6.059237	0.539896
430072.928360	0.552714	126.367187	-373.242187
430072.930361	0.550860	6.059459	0.546757
430074.006298	0.297390	357.617187	53.515625
430074.008300	0.541260	357.617187	53.515625
430074.010299	0.551436	357.617187	53.515625
430074.014298	0.548859	6.037454	0.443190
430075.022300	0.332042	130.664062	-363.964844
430075.024297	0.549919	130.664062	-363.964844
430075.026297	0.553871	130.664062	-363.964844
430075.028295	0.552319	6.075509	0.457245
430076.074265	0.552607	361.035156	54.980469
430076.076266	0.550895	6.059849	0.549245
430077.088241	0.528654	145.703125	-335.253906
430077.090245	0.552110	145.703125	-335.253906
430077.092243	0.550451	6.054966	0.573573
430078.168276	0.376824	362.792969	53.710937
430078.170278	0.552422	362.792969	53.710937
430078.172279	0.551971	6.071680	0.465219
430079.186817	0.552596	119.433594	-390.136719
430079.188819	0.550673	6.057403	0.448793
430080.232838	0.406283	369.238281	55.761719
430080.234840	0.553752	369.238281	55.761719
430080.236841	0.552116	6.073275	0.559817
430081.249436	0.503269	133.886719	-363.281250
430081.251434	0.552371	133.886719	-363.281250
430081.255433	0.549432	6.043755	0.568727
430082.329428	0.307367	368.164062	49.316406
430082.331430	0.543914	368.164062	49.316406
430082.333430	0.544994	368.164062	49.316406
430082.335430	0.550398	6.054381	0.459589
430083.347463	0.550153	131.542969	-371.093750
430083.349464	0.551636	6.067993	0.789131
430084.394441	0.416744	371.582031	49.707031
430084.396442	0.553608	371.582031	49.707031
430084.398441	0.551870	6.070572	0.570169
430085.446478	0.551621	119.921875	-398.046875
430085.448479	0.550108	6.051191	0.621850
430086.493033	0.546322	370.019531	49.023437
430086.497035	0.549924	370.019531	49.023437
430086.499035	0.548903	6.037932	0.672428
430087.507067	0.362403	133.496094	-369.921875
430087.509067	0.550932	133.496094	-369.921875
430087.511068	0.551325	6.064573	0.508528
430088.557100	0.532911	368.945312	53.515625
430088.559103	0.551984	368.945312	53.515625
430088.561103	0.550399	6.054390	0.563696
430089.603987	0.320145	125.683594	-381.835937
430089.605989	0.546714	125.683594	-381.835937
430089.607988	0.552235	125.683594	-381.835937
430089.609990	0.550743	6.058174	0.438748
430090.654028	0.518125	361.523437	52.929687
430090.656029	0.552167	361.523437	52.929687
430090.658031	0.550449	6.054939	0.416370
430091.668582	0.358211	148.828125	-326.464844
430091.670583	0.551584	148.828125	-326.464844
430091.672588	0.552324	6.075562	0.564108
430092.720584	0.552153	356.835937	55.761719
430092.722585	0.550561	6.056171	0.523327
430093.766582	0.479102	130.273437	-355.175781
430093.768585	0.552278	130.273437	-355.175781
430093.770587	0.550356	6.053911	0.456869
430094.814612	0.406893	353.613281	57.421875
430094.816613	0.413174	353.613281	57.421875
430094.818613	0.551298	6.064280	0.422042
430095.831183	0.501314	144.140625	-317.871094
430095.833185	0.552809	144.140625	-317.871094
430095.835186	0.550910	6.060009	0.551761
430096.881218	0.552794	356.738281	62.402344
430096.883220	0.550735	6.058085	0.525555
430097.927747	0.432560	135.742187	-328.515625
430097.929746	0.553556	135.742187	-328.515625
430097.931753	0.551500	6.066496	0.443161
430098.977765	0.550041	350.097656	56.933594
430098.979766	0.552286	350.097656	56.933594
430098.983767	0.549907	6.048975	0.453544
430099.993759	0.551937	132.031250	-334.570312
430099.995761	0.551708	6.068791	0.551401
430101.073751	0.468780	350.683594	55.566406
430101.075753	0.552858	350.683594	55.566406
430101.077753	0.550827	6.059095	0.366456
430102.089803	0.495321	116.210937	-367.089844
430102.091805	0.552211	116.210937	-367.089844
430102.093806	0.550374	6.054115	0.436231
430103.140239	0.553321	358.398437	58.984375
430103.142240	0.551310	6.064413	0.466206
430104.154818	0.539482	135.546875	-327.343750
430104.156814	0.551695	135.546875	-327.343750
430104.158817	0.550078	6.050854	0.647513
430105.235389	0.480645	355.761719	54.003906
430105.237392	0.552538	355.761719	54.003906
430105.239393	0.550542	6.055967	0.383584
430106.251437	0.503791	126.660156	-348.242187
430106.253439	0.552262	126.660156	-348.242187
430106.255438	0.550430	6.054735	0.430934
430107.301419	0.553127	360.839844	54.492187
430107.303420	0.551149	6.062640	0.498615
430108.317426	0.552679	127.343750	-346.777344
430108.319429	0.550688	127.343750	-346.777344
430108.321430	0.549463	6.044092	0.537613
430109.397509	0.530147	362.109375	52.734375
430109.399510	0.551893	362.109375	52.734375
430109.401511	0.550273	6.053007	0.406424
430110.414078	0.552666	115.527344	-372.851562
430110.416083	0.551488	6.066362	0.423196
430111.462089	0.540211	367.578125	55.566406
430111.464090	0.551459	367.578125	55.566406
430111.468089	0.548859	6.037454	0.639902
430112.477104	0.481155	124.511719	-352.441406
430112.479105	0.490831	124.511719	-352.441406
430112.481107	0.552848	6.081331	0.537641
430113.559147	0.535736	363.769531	50.878906
430113.561151	0.551806	363.769531	50.878906
430113.563150	0.551745	6.069199	0.485803
430114.573162	0.314411	119.042969	-364.160156
430114.575165	0.545009	119.042969	-364.160156
430114.577165	0.551460	119.042969	-364.160156
430114.579165	0.549962	6.049577	0.429030
430115.623752	0.545199	370.214844	55.371094
430115.625754	0.551211	370.214844	55.371094
430115.627754	0.549722	6.046946	0.520883
430116.638267	0.431789	124.218750	-352.050781
430116.640269	0.552964	124.218750	-352.050781
430116.642268	0.551007	6.061072	0.566138
430117.718744	0.286811	364.746094	50.292969
430117.720747	0.539204	364.746094	50.292969
430117.722748	0.552151	364.746094	50.292969
430117.724747	0.550542	6.055959	0.418181
430118.736855	0.548935	110.156250	-380.566406
430118.738857	0.551375	110.156250	-380.566406
430118.740856	0.549979	6.049773	0.437751
430119.785360	0.547830	370.117187	56.542969
430119.787361	0.551953	370.117187	56.542969
430119.789361	0.550478	6.055258	0.755122
430120.799336	0.357660	130.273437	-333.496094
430120.801337	0.550755	130.273437	-333.496094
430120.803337	0.551572	6.067294	0.573099
430121.885344	0.551293	363.964844	52.539062
430121.887348	0.550111	6.051226	0.413268
430122.899920	0.551856	116.308594	-359.667969
430122.901922	0.550297	6.053264	0.464101
430123.945941	0.482665	366.699219	56.835937
430123.947940	0.552779	366.699219	56.835937
430123.949941	0.550812	6.058928	0.521940
430124.960464	0.283000	133.691406	-320.605469
430124.962468	0.538055	133.691406	-320.605469
430124.964468	0.552048	133.691406	-320.605469
430124.968469	0.549412	6.043533	0.592149
430126.042519	0.407477	358.886719	52.246094
430126.044520	0.552951	358.886719	52.246094
430126.046520	0.551294	6.064236	0.408293
430127.058551	0.438466	118.945312	-346.484375
430127.060552	0.553474	118.945312	-346.484375
430127.062552	0.551440	6.065840	0.488264
430128.108593	0.550758	365.527344	58.691406
430128.110596	0.551571	6.067285	0.516867
430129.155111	0.345996	112.597656	-357.128906
430129.157113	0.549959	112.597656	-357.128906
430129.159114	0.551875	6.070626	0.402922
430130.205135	0.525755	360.937500	55.078125
430130.207137	0.552007	360.937500	55.078125
430130.209136	0.550371	6.054080	0.393508
430131.219183	0.289918	128.320312	-324.902344
430131.221185	0.539661	128.320312	-324.902344
430131.225183	0.550139	128.320312	-324.902344
430131.227184	0.549133	6.040467	0.504798
430132.271191	0.552801	364.941406	57.226562
430132.273191	0.550965	6.060620	0.487648
430133.319712	0.553123	114.062500	-358.007812
430133.321715	0.551227	6.063500	0.411055
430134.371682	0.550961	360.644531	51.953125
430134.373684	0.550044	6.050481	0.389833
430135.382248	0.509359	130.371094	-328.222656
430135.384251	0.552615	130.371094	-328.222656
430135.386251	0.550841	6.059255	0.531599
430136.432701	0.552903	370.312500	53.906250
430136.434703	0.551026	6.061285	0.482203
430137.479212	0.493193	117.871094	-362.402344
430137.481215	0.552516	117.871094	-362.402344
430137.483216	0.550684	6.057527	0.434382
430138.527671	0.480667	369.531250	48.144531
430138.529672	0.552907	369.531250	48.144531
430138.531672	0.550911	6.060017	0.382912
430139.542622	0.355792	137.109375	-329.296875
430139.544623	0.550430	137.109375	-329.296875
430139.546625	0.551312	6.064431	0.550515
430140.594677	0.552122	380.273437	48.925781
430140.596680	0.550519	6.055710	0.542912
430141.641198	0.528960	127.343750	-355.761719
430141.643201	0.551910	127.343750	-355.761719
430141.645202	0.550302	6.053326	0.422401
430142.689198	0.478867	372.949219	40.820312
430142.691201	0.553034	372.949219	40.820312
430142.693202	0.551087	6.061958	0.416182
430143.707228	0.552515	121.679687	-369.042969
430143.709229	0.550726	6.057988	0.516899
430144.753246	0.437986	387.988281	44.140625
430144.755247	0.553611	387.988281	44.140625
430144.757246	0.551557	6.067125	0.550703
430145.803269	0.550360	118.847656	-374.023437
430145.805271	0.551948	6.071432	0.729620
430146.851290	0.527559	384.082031	41.210937
430146.853292	0.552133	384.082031	41.210937
430146.857291	0.549336	6.042692	0.442681
430147.867342	0.540762	114.550781	-380.078125
430147.869344	0.551849	114.550781	-380.078125
430147.871346	0.550298	6.053282	0.619639
430148.947369	0.411294	377.050781	38.867187
430148.949375	0.553279	377.050781	38.867187
430148.951378	0.551644	6.068082	0.361736
430149.963403	0.442670	101.074219	-408.984375
430149.965408	0.552881	101.074219	-408.984375
430149.967413	0.550853	6.059379	0.393559
430151.013837	0.552753	385.937500	42.675781
430151.015840	0.550831	385.937500	42.675781
430151.017841	0.549574	6.045315	0.471032
430152.029865	0.553200	113.183594	-376.660156
430152.031869	0.551123	6.062357	0.500411
430153.111865	0.552167	379.882812	41.308594
430153.113866	0.550431	379.882812	41.308594
430153.115865	0.549338	6.042718	0.372877
430154.127863	0.557335	99.316406	-406.152344
430154.129865	0.555734	6.113076	0.433100
430155.175891	0.552676	386.230469	43.652344
430155.177894	0.550746	6.058209	0.483907
430156.191983	0.552071	126.269531	-343.066406
430156.193989	0.550327	6.053601	0.500608
430157.270532	0.424606	379.882812	41.113281
430157.272534	0.554033	379.882812	41.113281
430157.274533	0.552038	6.072415	0.374946
430158.288569	0.553420	100.488281	-402.343750
430158.290570	0.551355	6.064900	0.391060
430159.334524	0.360731	389.257812	43.652344
430159.336528	0.551079	389.257812	43.652344
430159.338528	0.551647	6.068118	0.497035
430160.350533	0.392820	116.406250	-366.210937
430160.352534	0.552521	116.406250	-366.210937
430160.354534	0.551313	6.064440	0.528085
430161.433033	0.525813	382.617187	39.355469
430161.435035	0.552184	382.617187	39.355469
430161.437035	0.550521	6.055728	0.377185
430162.451050	0.551923	105.371094	-394.042969
430162.453052	0.550392	105.371094	-394.042969
430162.455053	0.549332	6.042647	0.510106
430163.497088	0.500671	390.722656	41.601562
430163.499089	0.552254	390.722656	41.601562
430163.501089	0.550463	6.055099	0.477271
430164.545083	0.431719	95.605469	-419.433594
430164.547084	0.554190	95.605469	-419.433594
430164.549087	0.552139	6.073532	0.333921
430165.593117	0.345039	388.574219	40.332031
430165.595116	0.549717	388.574219	40.332031
430165.597117	0.551645	6.068091	0.370386
430166.611150	0.552060	110.742187	-384.277344
430166.613151	0.551285	6.064138	0.437471
430167.659120	0.536126	391.992187	42.675781
430167.661121	0.551486	391.992187	42.675781
430167.663121	0.549900	6.048904	0.469368
430168.707674	0.535462	104.394531	-396.289062
430168.709676	0.552006	104.394531	-396.289062
430168.711676	0.550422	6.054646	0.435232
430169.755672	0.490860	381.835937	41.015625
430169.757672	0.552371	381.835937	41.015625
430169.759673	0.550496	6.055453	0.344312
430170.771671	0.508453	125.097656	-344.531250
430170.773671	0.552214	125.097656	-344.531250
430170.775673	0.550427	6.054700	0.474026
430171.819706	0.447702	384.960937	45.800781
430171.821708	0.553217	384.960937	45.800781
430171.823708	0.551159	6.062747	0.455054
430172.868277	0.447958	109.667969	-370.703125
430172.870278	0.553780	109.667969	-370.703125
430172.872279	0.551632	6.067949	0.387137
430173.916745	0.432569	372.753906	44.238281
430173.918746	0.553544	372.753906	44.238281
430173.920747	0.551525	6.066780	0.341929
430174.933264	0.513040	133.007812	-308.593750
430174.935267	0.552861	133.007812	-308.593750
430174.937266	0.551042	6.061461	0.488722
430175.981809	0.509922	374.218750	47.363281
430175.983812	0.553110	374.218750	47.363281
430175.985810	0.551304	6.064342	0.437778
430177.031863	0.553333	119.238281	-329.199219
430177.033865	0.551257	6.063828	0.382714
430178.078455	0.457648	368.652344	46.972656
430178.080458	0.552912	368.652344	46.972656
430178.082459	0.550788	6.058671	0.349105
430179.096480	0.552642	123.242187	-312.988281
430179.098483	0.550672	6.057394	0.487050
430180.142491	0.408193	378.515625	52.929687
430180.144493	0.553825	378.515625	52.929687
430180.146495	0.552188	6.074073	0.476074
430181.198544	0.549602	109.667969	-337.207031
430181.200546	0.548810	6.036913	0.383613
430182.240578	0.517012	365.820312	47.558594
430182.242581	0.552420	365.820312	47.558594
430182.244580	0.550685	6.057536	0.364451
430183.254617	0.264926	119.433594	-312.695312
430183.256624	0.532864	119.433594	-312.695312
430183.258624	0.537577	119.433594	-312.695312
430183.260625	0.550729	6.058023	0.500875
430184.304613	0.485736	373.535156	50.195312
430184.306617	0.552730	373.535156	50.195312
430184.308615	0.550787	6.058661	0.494378
430185.353140	0.480626	114.160156	-321.777344
430185.355142	0.552859	114.160156	-321.777344
430185.357142	0.550876	6.059636	0.368462
430186.403672	0.552864	367.382812	47.558594
430186.405673	0.550874	6.059609	0.381073
430187.417713	0.499056	114.257812	-321.679687
430187.419716	0.552334	114.257812	-321.679687
430187.421716	0.550513	6.055639	0.483731
430188.467673	0.552931	382.226562	54.199219
430188.469674	0.551048	6.061524	0.502234
430189.514582	0.469954	104.492187	-342.382812
430189.516584	0.553162	104.492187	-342.382812
430189.518583	0.551177	6.062942	0.365974
430190.562618	0.394376	370.800781	47.460937
430190.564620	0.552206	370.800781	47.460937
430190.566620	0.550944	6.060380	0.396245
430191.578627	0.425197	131.347656	-284.667969
430191.580630	0.552860	131.347656	-284.667969
430191.582629	0.550934	6.060274	0.474688
430192.660636	0.502705	369.921875	46.777344
430192.662637	0.551977	369.921875	46.777344
430192.664638	0.550147	6.051616	0.313024
430193.675155	0.320044	106.738281	-335.253906
430193.677158	0.546214	106.738281	-335.253906
430193.679157	0.551662	106.738281	-335.253906
430193.681157	0.550174	6.051917	0.373732
430194.725214	0.518770	377.050781	49.414062
430194.727216	0.552544	377.050781	49.414062
430194.731214	0.549771	6.047486	0.397506
430195.739780	0.361360	116.308594	-312.207031
430195.741783	0.550871	116.308594	-312.207031
430195.743783	0.551381	6.065193	0.514593
430196.822228	0.507212	364.941406	44.238281
430196.824230	0.552947	364.941406	44.238281
430196.826235	0.551102	6.062126	0.305386
430197.838278	0.524648	116.210937	-310.644531
430197.840280	0.552033	116.210937	-310.644531
430197.842281	0.550406	6.054461	0.375044
430198.886279	0.473985	374.218750	47.656250
430198.888281	0.552500	374.218750	47.656250
430198.890281	0.550513	6.055648	0.408487
430199.902347	0.501313	119.335937	-302.539062
430199.904348	0.552768	119.335937	-302.539062
430199.906349	0.550962	6.060584	0.497333
430200.982360	0.308784	367.578125	45.214844
430200.984363	0.544371	367.578125	45.214844
430200.986363	0.552063	367.578125	45.214844
430200.988363	0.550502	6.055524	0.307316
430201.998399	0.349908	120.019531	-300.390625
430202.000402	0.549844	120.019531	-300.390625
430202.002399	0.551235	6.063589	0.404857
430203.048362	0.523393	374.707031	48.144531
430203.050362	0.552185	374.707031	48.144531
430203.052366	0.550545	6.055994	0.397506
430204.064368	0.536229	137.695312	-264.355469
430204.066370	0.552142	137.695312	-264.355469
430204.068370	0.550522	6.055737	0.546366
430205.146371	0.552019	371.484375	46.093750
430205.148372	0.550865	6.059512	0.298559
430206.162925	0.495308	116.015625	-308.496094
430206.164929	0.550676	6.057438	0.404122
430207.210961	0.552856	381.250000	48.925781
430207.212962	0.550954	6.060496	0.395493
430208.258971	0.502820	100.488281	-345.507812
430208.260971	0.552267	100.488281	-345.507812
430208.262971	0.550748	6.058227	0.323985
430209.307053	0.524352	367.382812	43.261719
430209.309056	0.552495	367.382812	43.261719
430209.313054	0.549772	6.047495	0.289862
430210.323121	0.539363	115.429687	-317.187500
430210.325122	0.551919	115.429687	-317.187500
430210.327123	0.550389	6.054284	0.547779
430211.371177	0.504166	384.375000	46.972656
430211.373179	0.552181	384.375000	46.972656
430211.375180	0.550376	6.054132	0.385001
430212.418133	0.263085	104.296875	-348.730469
430212.420134	0.531882	104.296875	-348.730469
430212.422137	0.551840	104.296875	-348.730469
430212.424134	0.550209	6.052298	0.352436
430213.436177	0.543327	388.085937	45.507812
430213.438179	0.551733	388.085937	45.507812
430213.440178	0.550265	6.052910	0.524680
430214.484195	0.508413	113.574219	-334.863281
430214.486195	0.552426	113.574219	-334.863281
430214.488197	0.550658	6.057235	0.450389
430215.532193	0.446248	386.718750	42.089844
430215.534194	0.553569	386.718750	42.089844
430215.536195	0.551463	6.066097	0.391080
430216.582178	0.550314	111.914062	-345.507812
430216.584182	0.551374	6.065113	0.705994
430217.629126	0.414295	377.734375	36.621094
430217.631127	0.553021	377.734375	36.621094
430217.633127	0.551300	6.064298	0.311984
430218.645129	0.443330	115.039062	-344.921875
430218.647131	0.553462	115.039062	-344.921875
430218.649130	0.553425	6.087677	0.440186
430219.693160	0.355900	399.218750	38.964844
430219.695162	0.550592	399.218750	38.964844
430219.697165	0.551500	6.066496	0.434916
430220.741664	0.344600	96.582031	-389.648437
430220.743666	0.549466	96.582031	-389.648437
430220.745667	0.551500	6.066496	0.341082
430221.792141	0.547724	395.996094	36.132812
430221.794143	0.552180	395.996094	36.132812
430221.796145	0.550627	6.056898	0.589436
430222.806149	0.360709	110.058594	-358.398437
430222.808151	0.550783	110.058594	-358.398437
430222.810151	0.551300	6.064298	0.420313
430223.856177	0.533197	407.519531	38.183594
430223.858180	0.552164	407.519531	38.183594
430223.860179	0.550505	6.055559	0.456715
430224.904711	0.530257	92.968750	-395.898437
430224.906713	0.552569	92.968750	-395.898437
430224.908712	0.550924	6.060160	0.323245
430225.952735	0.485105	400.781250	35.644531
430225.954736	0.552931	400.781250	35.644531
430225.956736	0.550919	6.060106	0.351952
430226.967640	0.355237	107.324219	-358.886719
430226.969644	0.550258	107.324219	-358.886719
430226.971644	0.551188	6.063066	0.407827
430228.017666	0.530207	409.179687	37.597656
430228.019668	0.552328	409.179687	37.597656
430228.021667	0.550669	6.057359	0.477846
430229.066217	0.528826	88.867187	-399.121094
430229.068217	0.552557	88.867187	-399.121094
430229.070217	0.550929	6.060221	0.314078
430230.116658	0.552362	403.125000	36.523437
430230.118661	0.550651	403.125000	36.523437
430230.120661	0.549594	6.045537	0.366268
430231.130721	0.535292	103.417969	-362.402344
430231.132722	0.552114	103.417969	-362.402344
430231.134722	0.550538	6.055914	0.483290
430232.180746	0.553641	409.472656	38.378906
430232.182748	0.551688	6.068570	0.487564
430233.227288	0.490919	88.964844	-394.335937
430233.229292	0.552941	88.964844	-394.335937
430233.231290	0.551011	6.061125	0.312227
430234.275307	0.422114	395.703125	34.375000
430234.277308	0.553739	395.703125	34.375000
430234.279311	0.551786	6.069651	0.377880
430235.291300	0.447803	107.128906	-352.929687
430235.293301	0.553397	107.128906	-352.929687
430235.295299	0.551300	6.064298	0.412309
430236.341342	0.551484	411.914062	38.671875
430236.343343	0.551648	6.068126	0.497627
430237.387913	0.364578	92.871094	-386.914062
430237.389914	0.550971	92.871094	-386.914062
430237.391913	0.551228	6.063509	0.318791
430238.439980	0.552151	399.414062	35.058594
430238.441987	0.550563	399.414062	35.058594
430238.443989	0.549519	6.044712	0.425273
430239.452628	0.416979	106.835937	-351.562500
430239.454632	0.553270	106.835937	-351.562500
430239.456632	0.551446	6.065902	0.440954
430240.502646	0.546744	412.695312	37.011719
430240.504648	0.551712	412.695312	37.011719
430240.506650	0.550182	6.051997	0.494226
430241.549193	0.315896	101.855469	-367.968750
430241.553193	0.551637	101.855469	-367.968750
430241.555194	0.550110	101.855469	-367.968750
430241.557195	0.549109	6.040201	0.344122
430242.601222	0.556312	404.199219	34.960937
430242.603224	0.554523	6.099756	0.360153
430243.613740	0.345785	115.625000	-336.718750
430243.615746	0.550376	115.625000	-336.718750
430243.617749	0.552189	6.074081	0.466223
430244.665804	0.552449	402.636719	35.546875
430244.667805	0.550811	6.058918	0.477207
430245.711766	0.476516	108.691406	-348.046875
430245.713768	0.552630	108.691406	-348.046875
430245.715767	0.552545	6.077999	0.364557
430246.759783	0.400095	396.191406	36.132812
430246.761784	0.552843	396.191406	36.132812
430246.763783	0.552938	6.082315	0.349430
430247.775849	0.439378	121.875000	-313.867187
430247.777851	0.553521	121.875000	-313.867187
430247.779851	0.551445	6.065893	0.499033
430248.823822	0.341643	405.175781	40.722656
430248.825823	0.549052	405.175781	40.722656
430248.827824	0.551441	6.065848	0.477896
430249.874741	0.552684	118.261719	-313.281250
430249.876744	0.551291	6.064200	0.385105
430250.923322	0.553105	387.988281	38.671875
430250.925328	0.551549	387.988281	38.671875
430250.927331	0.550290	6.053185	0.339660
430251.971393	0.545143	95.019531	-354.687500
430251.973395	0.551645	95.019531	-354.687500
430251.975394	0.550160	6.051758	0.294067
430252.987866	0.553147	391.503906	41.308594
430252.989869	0.551206	6.063261	0.457378
430254.033829	0.322748	112.597656	-306.835937
430254.037829	0.551556	112.597656	-306.835937
430254.039829	0.550028	112.597656	-306.835937
430254.041830	0.549050	6.039554	0.399193
430255.085871	0.552717	391.601562	42.480469
430255.087873	0.550969	6.060655	0.338535
430256.132814	0.540607	95.703125	-335.253906
430256.134815	0.551749	95.703125	-335.253906
430256.136815	0.550216	6.052378	0.294134
430257.147338	0.415070	390.820312	43.750000
430257.149344	0.553153	390.820312	43.750000
430257.151339	0.551436	6.065795	0.487403
430258.197825	0.552693	117.285156	-281.640625
430258.199827	0.551195	6.063146	0.393979
430259.244359	0.396946	384.667969	41.894531
430259.246361	0.552636	384.667969	41.894531
430259.248363	0.551235	6.063580	0.366206
430260.294375	0.542050	103.906250	-305.761719
430260.296377	0.551638	103.906250	-305.761719
430260.298378	0.550111	6.051226	0.295186
430261.344963	0.553146	369.531250	38.964844
430261.346965	0.551521	6.066726	0.415204
430262.359004	0.549863	117.480469	-273.339844
430262.361004	0.552114	117.480469	-273.339844
430262.365003	0.549671	6.046378	0.680896
430263.407020	0.523889	390.917969	44.531250
430263.409021	0.551819	390.917969	44.531250
430263.411023	0.550216	6.052378	0.380252
430264.455601	0.524424	96.484375	-314.160156
430264.457603	0.552087	96.484375	-314.160156
430264.459601	0.550445	6.054895	0.290086
